Folder: R-learning-stuff/CV data (part 2)

File: 012615_KM_o2 purge_0mmhg.txt
EXPLAIN
TAG	CV
TITLE	LABEL	Cyclic Voltammetry	Test &Identifier
DATE	LABEL	1/26/2015	Date
TIME	LABEL	15:11:37	Time
NOTES	NOTES	1	&Notes...

PSTAT	PSTAT	IFC1000-06010	Potentiostat
VINIT	POTEN	1.00000E+000	F	Initial &E (V)
VLIMIT1	POTEN	-8.00000E-001	F	Scan Limit &1 (V)
VLIMIT2	POTEN	1.00000E+000	F	Scan Limit &2 (V)
VFINAL	POTEN	-8.00000E-001	F	Final &E (V)
SCANRATE	QUANT	4.99999E+001	&Scan Rate (mV/s)
STEPSIZE	QUANT	2.00000E+000	St&ep Size (mV)
CYCLES	IQUANT	10	C&ycles (#)
IMODE	SELECTOR	0	I/E Range &Mode
IRANGE	QUANT	1.00000E+001	&Max Current (mA)
AREA	QUANT	1.00000E+000	Electrode &Area (cm^2)
ELECTRODETYPE	SELECTOR	0	Electrode Type
STRIPPING	TOGGLE	F	Used for Stripping
POLARITY	TOGGLE	F	Signal Polarity
CONDIT	TWOPARAM	F	1.50000E+001	0.00000E+000	Conditionin&g	Time(s)	E(V)
DELAY	TWOPARAM	T	2.00000E+001	0.00000E+000	Init. De&lay	Time(s)	Stab.(mV/s)
EQDELAY	QUANT	5.00000E+000	Equil. &Time (s)
IRCOMP	SELECTOR	1	IRCom&p
PFCOR	QUANT	5.00000E+001	PF Corr. (ohm)
SAMPLINGMODE	SELECTOR	1	Sampling &Mode
OCVCURVE	TABLE	77
	Pt	T	Vf	Vm	Ach	Over
	#	s	V vs. Ref.	V	V	bits
	0	0.258333	3.66723E-001	3.66723E-001	0.00000E+000	...........
	1	0.516667	3.66719E-001	3.66539E-001	0.00000E+000	...........
	2	0.775	3.66698E-001	3.66364E-001	0.00000E+000	...........
	3	1.03333	3.66637E-001	3.66189E-001	0.00000E+000	...........
	4	1.29167	3.66526E-001	3.66003E-001	0.00000E+000	...........
	5	1.55	3.66376E-001	3.65843E-001	0.00000E+000	...........
	6	1.80833	3.66206E-001	3.65674E-001	0.00000E+000	...........
	7	2.06667	3.66031E-001	3.65508E-001	0.00000E+000	...........
	8	2.325	3.65857E-001	3.65332E-001	0.00000E+000	...........
	9	2.58333	3.65687E-001	3.65172E-001	0.00000E+000	...........
	10	2.84167	3.65519E-001	3.65030E-001	0.00000E+000	...........
	11	3.1	3.65354E-001	3.64874E-001	0.00000E+000	...........
	12	3.35833	3.65194E-001	3.64725E-001	0.00000E+000	...........
	13	3.61667	3.65039E-001	3.64580E-001	0.00000E+000	...........
	14	3.875	3.64887E-001	3.64418E-001	0.00000E+000	...........
	15	4.13333	3.64737E-001	3.64272E-001	0.00000E+000	...........
	16	4.39167	3.64586E-001	3.64128E-001	0.00000E+000	...........
	17	4.65	3.64435E-001	3.63980E-001	0.00000E+000	...........
	18	4.90833	3.64286E-001	3.63838E-001	0.00000E+000	...........
	19	5.16667	3.64139E-001	3.63701E-001	0.00000E+000	...........
	20	5.425	3.63994E-001	3.63557E-001	0.00000E+000	...........
	21	5.68333	3.63851E-001	3.63419E-001	0.00000E+000	...........
	22	5.94167	3.63710E-001	3.63292E-001	0.00000E+000	...........
	23	6.2	3.63571E-001	3.63153E-001	0.00000E+000	...........
	24	6.45833	3.63434E-001	3.63018E-001	0.00000E+000	...........
	25	6.71667	3.63299E-001	3.62885E-001	0.00000E+000	...........
	26	6.975	3.63164E-001	3.62754E-001	0.00000E+000	...........
	27	7.23333	3.63030E-001	3.62636E-001	0.00000E+000	...........
	28	7.49167	3.62898E-001	3.62502E-001	0.00000E+000	...........
	29	7.75	3.62769E-001	3.62371E-001	0.00000E+000	...........
	30	8.00833	3.62641E-001	3.62246E-001	0.00000E+000	...........
	31	8.26667	3.62512E-001	3.62110E-001	0.00000E+000	...........
	32	8.525	3.62383E-001	3.61994E-001	0.00000E+000	...........
	33	8.78333	3.62255E-001	3.61881E-001	0.00000E+000	...........
	34	9.04167	3.62129E-001	3.61758E-001	0.00000E+000	...........
	35	9.3	3.62006E-001	3.61633E-001	0.00000E+000	...........
	36	9.5583	3.61886E-001	3.61517E-001	0.00000E+000	...........
	37	9.8167	3.61766E-001	3.61401E-001	0.00000E+000	...........
	38	10.075	3.61646E-001	3.61295E-001	0.00000E+000	...........
	39	10.3333	3.61528E-001	3.61158E-001	0.00000E+000	...........
	40	10.5917	3.61411E-001	3.61047E-001	0.00000E+000	...........
	41	10.85	3.61294E-001	3.60930E-001	0.00000E+000	...........
	42	11.1083	3.61175E-001	3.60819E-001	0.00000E+000	...........
	43	11.3667	3.61058E-001	3.60706E-001	0.00000E+000	...........
	44	11.625	3.60942E-001	3.60595E-001	0.00000E+000	...........
	45	11.8833	3.60828E-001	3.60494E-001	0.00000E+000	...........
	46	12.1417	3.60716E-001	3.60382E-001	0.00000E+000	...........
	47	12.4	3.60607E-001	3.60272E-001	0.00000E+000	...........
	48	12.6583	3.60498E-001	3.60158E-001	0.00000E+000	...........
	49	12.9167	3.60390E-001	3.60055E-001	0.00000E+000	...........
	50	13.175	3.60281E-001	3.59965E-001	0.00000E+000	...........
	51	13.4333	3.60173E-001	3.59842E-001	0.00000E+000	...........
	52	13.6917	3.60067E-001	3.59734E-001	0.00000E+000	...........
	53	13.95	3.59961E-001	3.59632E-001	0.00000E+000	...........
	54	14.2083	3.59854E-001	3.59540E-001	0.00000E+000	...........
	55	14.4667	3.59748E-001	3.59425E-001	0.00000E+000	...........
	56	14.725	3.59644E-001	3.59326E-001	0.00000E+000	...........
	57	14.9833	3.59540E-001	3.59211E-001	0.00000E+000	...........
	58	15.2417	3.59435E-001	3.59106E-001	0.00000E+000	...........
	59	15.5	3.59329E-001	3.59004E-001	0.00000E+000	...........
	60	15.7583	3.59223E-001	3.58889E-001	0.00000E+000	...........
	61	16.0167	3.59116E-001	3.58787E-001	0.00000E+000	...........
	62	16.275	3.59009E-001	3.58682E-001	0.00000E+000	...........
	63	16.5333	3.58902E-001	3.58590E-001	0.00000E+000	...........
	64	16.7917	3.58797E-001	3.58487E-001	0.00000E+000	...........
	65	17.05	3.58695E-001	3.58391E-001	0.00000E+000	...........
	66	17.3083	3.58595E-001	3.58314E-001	0.00000E+000	...........
	67	17.5667	3.58499E-001	3.58212E-001	0.00000E+000	...........
	68	17.825	3.58405E-001	3.58123E-001	0.00000E+000	...........
	69	18.0833	3.58313E-001	3.58040E-001	0.00000E+000	...........
	70	18.3417	3.58223E-001	3.57939E-001	0.00000E+000	...........
	71	18.6	3.58132E-001	3.57845E-001	0.00000E+000	...........
	72	18.8583	3.58040E-001	3.57755E-001	0.00000E+000	...........
	73	19.1167	3.57948E-001	3.57663E-001	0.00000E+000	...........
	74	19.375	3.57855E-001	3.57585E-001	0.00000E+000	...........
	75	19.6333	3.57764E-001	3.57490E-001	0.00000E+000	...........
	76	19.8917	3.57675E-001	3.57409E-001	0.00000E+000	...........
EOC	QUANT	0.3576746	Open Circuit (V)
PSTATMODEL	IQUANT	48	Pstat Model
PSTATSECTION	LABEL	IFC1000-06010	Pstat Section
PSTATSERIALNO	LABEL	06010	Pstat Serial Number
CTRLMODE	IQUANT	1	Control Mode
IESTAB	IQUANT	2	I/E Stability
CASPEED	IQUANT	2	Control Amp Speed
CONVENTION	IQUANT	1	Current Convention
ICHRANGE	IQUANT	2	Ich Range
ICHRANGEMODE	TOGGLE	F	Ich Auto Range
ICHOFFSETENABLE	TOGGLE	F	Ich Offset Enable
ICHOFFSET	QUANT	0	Ich Offset (V)
ICHFILTER	IQUANT	3	Ich Filter
VCHRANGE	IQUANT	2	Vch Range
VCHRANGEMODE	TOGGLE	F	Vch Auto Range
VCHOFFSETENABLE	TOGGLE	F	Vch Offset Enable
VCHOFFSET	QUANT	0	Vch Offset (V)
VCHFILTER	IQUANT	3	Vch Filter
IERANGELOWERLIMIT	IQUANT	4	I/E Range Lower Limit
IERANGEMODE	TOGGLE	T	I/E AutoRange
IERANGE	IQUANT	11	I/E Range
ACHSELECT	IQUANT	4	Ach Select
CABLEID	IQUANT	14	Cable ID
DCCALDATE	LABEL	9/18/2014	DC Calibration Date
ACCALDATE	LABEL	9/18/2014	AC Calibration Date
FRAMEWORKVERSION	QUANT	6.25	Framework Version
INSTRUMENTVERSION	LABEL	3.26	Instrument Version
CURVE1	TABLE
	Pt	T	Vf	Im	Vu	Sig	Ach	IERange	Over
	#	s	V vs. Ref.	A	V	V	V	#	bits
	0	0.04	9.99900E-001	6.49409E-005	0.00000E+000	9.99985E-001	0.00000E+000	11	...........
	17	0.72	9.65907E-001	2.81290E-005	0.00000E+000	9.66017E-001	0.00000E+000	8	...........
	34	1.4	9.31889E-001	1.35845E-005	0.00000E+000	9.32000E-001	0.00000E+000	8	...........
	51	2.08	8.97867E-001	4.11698E-006	0.00000E+000	8.97982E-001	0.00000E+000	7	.....h.....
[...]
	18568	742.76	-1.36011E-001	-2.36687E-004	0.00000E+000	-1.35997E-001	0.00000E+000	9	...........
	18577	743.12	-1.54049E-001	-2.24688E-004	0.00000E+000	-1.54006E-001	0.00000E+000	9	...........
	18586	743.48	-1.72039E-001	-2.12324E-004	0.00000E+000	-1.72016E-001	0.00000E+000	9	...........
	18595	743.84	-1.90006E-001	-1.99484E-004	0.00000E+000	-1.89975E-001	0.00000E+000	9	...........
	18604	744.2	-2.08015E-001	-1.85490E-004	0.00000E+000	-2.07984E-001	0.00000E+000	9	...........
	18613	744.56	-2.26018E-001	-1.70897E-004	0.00000E+000	-2.25993E-001	0.00000E+000	9	...........
	18622	744.92	-2.44047E-001	-1.57395E-004	0.00000E+000	-2.44002E-001	0.00000E+000	9	...........
	18631	745.28	-2.62057E-001	-1.43550E-004	0.00000E+000	-2.62012E-001	0.00000E+000	9	...........
	18640	745.64	-2.80054E-001	-1.32865E-004	0.00000E+000	-2.80021E-001	0.00000E+000	9	...........
	18649	746	-2.98043E-001	-1.24320E-004	0.00000E+000	-2.97980E-001	0.00000E+000	9	...........
	18658	746.36	-3.16017E-001	-1.18449E-004	0.00000E+000	-3.15989E-001	0.00000E+000	9	...........
	18667	746.72	-3.34051E-001	-1.17365E-004	0.00000E+000	-3.33999E-001	0.00000E+000	9	...........
	18676	747.08	-3.52053E-001	-1.18946E-004	0.00000E+000	-3.52008E-001	0.00000E+000	9	...........
	18685	747.44	-3.70073E-001	-1.28598E-004	0.00000E+000	-3.70017E-001	0.00000E+000	9	...........
	18694	747.8	-3.88030E-001	-1.41447E-004	0.00000E+000	-3.87976E-001	0.00000E+000	9	...........
	18703	748.16	-4.06031E-001	-1.58253E-004	0.00000E+000	-4.05985E-001	0.00000E+000	9	...........
	18712	748.52	-4.24052E-001	-1.79588E-004	0.00000E+000	-4.23995E-001	0.00000E+000	9	...........
	18721	748.88	-4.42045E-001	-2.01990E-004	0.00000E+000	-4.42004E-001	0.00000E+000	9	...........
	18730	749.24	-4.60048E-001	-2.29013E-004	0.00000E+000	-4.60013E-001	0.00000E+000	9	...........
	18739	749.6	-4.78034E-001	-2.49009E-004	0.00000E+000	-4.77972E-001	0.00000E+000	9	...........
	18748	749.96	-4.96042E-001	-2.69440E-004	0.00000E+000	-4.95981E-001	0.00000E+000	9	...........
	18757	750.32	-5.14080E-001	-2.81546E-004	0.00000E+000	-5.13991E-001	0.00000E+000	9	...........
	18766	750.68	-5.32053E-001	-2.76188E-004	0.00000E+000	-5.32000E-001	0.00000E+000	9	...........
	18775	751.04	-5.50056E-001	-2.58717E-004	0.00000E+000	-5.50009E-001	0.00000E+000	9	...........
	18784	751.4	-5.68062E-001	-2.30494E-004	0.00000E+000	-5.68018E-001	0.00000E+000	9	...........
	18793	751.76	-5.86025E-001	-2.06054E-004	0.00000E+000	-5.85978E-001	0.00000E+000	9	...........
	18802	752.12	-6.04063E-001	-1.98690E-004	0.00000E+000	-6.03987E-001	0.00000E+000	9	...........
	18811	752.48	-6.22042E-001	-2.34835E-004	0.00000E+000	-6.21996E-001	0.00000E+000	9	...........
	18820	752.84	-6.40056E-001	-3.64801E-004	0.00000E+000	-6.40005E-001	0.00000E+000	9	...........
	18829	753.2	-6.58076E-001	-5.63523E-004	0.00000E+000	-6.58014E-001	0.00000E+000	9	...........
	18838	753.56	-6.76030E-001	-7.24427E-004	0.00000E+000	-6.75974E-001	0.00000E+000	9	...........
	18847	753.92	-6.94058E-001	-7.96567E-004	0.00000E+000	-6.93983E-001	0.00000E+000	9	...........
	18856	754.28	-7.12044E-001	-8.12024E-004	0.00000E+000	-7.11992E-001	0.00000E+000	9	...........
	18865	754.64	-7.30052E-001	-8.32632E-004	0.00000E+000	-7.30001E-001	0.00000E+000	9	...........
	18874	755	-7.48076E-001	-8.94705E-004	0.00000E+000	-7.48011E-001	0.00000E+000	9	...........
	18883	755.36	-7.66077E-001	-1.02787E-003	0.00000E+000	-7.66020E-001	0.00000E+000	10	...........
	18892	755.72	-7.84059E-001	-1.26498E-003	0.00000E+000	-7.83979E-001	0.00000E+000	10	...........
	18900	756.04	-8.00063E-001	-1.58948E-003	0.00000E+000	-7.99987E-001	0.00000E+000	10	...........

File: 012615_KM_o2 sat_760mmhg.txt
EXPLAIN
TAG	CV
TITLE	LABEL	Cyclic Voltammetry	Test &Identifier
DATE	LABEL	1/26/2015	Date
TIME	LABEL	15:32:04	Time
NOTES	NOTES	1	&Notes...

PSTAT	PSTAT	IFC1000-06010	Potentiostat
VINIT	POTEN	1.00000E+000	F	Initial &E (V)
VLIMIT1	POTEN	-8.00000E-001	F	Scan Limit &1 (V)
VLIMIT2	POTEN	1.00000E+000	F	Scan Limit &2 (V)
VFINAL	POTEN	-8.00000E-001	F	Final &E (V)
SCANRATE	QUANT	4.99999E+001	&Scan Rate (mV/s)
STEPSIZE	QUANT	2.00000E+000	St&ep Size (mV)
CYCLES	IQUANT	10	C&ycles (#)
IMODE	SELECTOR	0	I/E Range &Mode
IRANGE	QUANT	1.00000E+001	&Max Current (mA)
AREA	QUANT	1.00000E+000	Electrode &Area (cm^2)
ELECTRODETYPE	SELECTOR	0	Electrode Type
STRIPPING	TOGGLE	F	Used for Stripping
POLARITY	TOGGLE	F	Signal Polarity
CONDIT	TWOPARAM	F	1.50000E+001	0.00000E+000	Conditionin&g	Time(s)	E(V)
DELAY	TWOPARAM	T	2.00000E+001	0.00000E+000	Init. De&lay	Time(s)	Stab.(mV/s)
EQDELAY	QUANT	5.00000E+000	Equil. &Time (s)
IRCOMP	SELECTOR	1	IRCom&p
PFCOR	QUANT	5.00000E+001	PF Corr. (ohm)
SAMPLINGMODE	SELECTOR	1	Sampling &Mode
OCVCURVE	TABLE	77
	Pt	T	Vf	Vm	Ach	Over
	#	s	V vs. Ref.	V	V	bits
	0	0.258333	3.01495E-001	3.01495E-001	0.00000E+000	...........
	1	0.516667	3.01497E-001	3.01571E-001	0.00000E+000	...........
	2	0.775	3.01506E-001	3.01645E-001	0.00000E+000	...........
	3	1.03333	3.01531E-001	3.01704E-001	0.00000E+000	...........
	4	1.29167	3.01576E-001	3.01788E-001	0.00000E+000	...........
	5	1.55	3.01636E-001	3.01863E-001	0.00000E+000	...........
	6	1.80833	3.01706E-001	3.01939E-001	0.00000E+000	...........
	7	2.06667	3.01780E-001	3.02003E-001	0.00000E+000	...........
	8	2.325	3.01855E-001	3.02086E-001	0.00000E+000	...........
	9	2.58333	3.01929E-001	3.02148E-001	0.00000E+000	...........
	10	2.84167	3.02002E-001	3.02237E-001	0.00000E+000	...........
	11	3.1	3.02076E-001	3.02302E-001	0.00000E+000	...........
	12	3.35833	3.02150E-001	3.02370E-001	0.00000E+000	...........
	13	3.61667	3.02223E-001	3.02446E-001	0.00000E+000	...........
	14	3.875	3.02296E-001	3.02510E-001	0.00000E+000	...........
	15	4.13333	3.02367E-001	3.02588E-001	0.00000E+000	...........
	16	4.39167	3.02437E-001	3.02650E-001	0.00000E+000	...........
	17	4.65	3.02508E-001	3.02731E-001	0.00000E+000	...........
	18	4.90833	3.02579E-001	3.02794E-001	0.00000E+000	...........
	19	5.16667	3.02650E-001	3.02876E-001	0.00000E+000	...........
	20	5.425	3.02722E-001	3.02950E-001	0.00000E+000	...........
	21	5.68333	3.02794E-001	3.03008E-001	0.00000E+000	...........
	22	5.94167	3.02867E-001	3.03093E-001	0.00000E+000	...........
	23	6.2	3.02939E-001	3.03149E-001	0.00000E+000	...........
	24	6.45833	3.03009E-001	3.03222E-001	0.00000E+000	...........
	25	6.71667	3.03079E-001	3.03273E-001	0.00000E+000	...........
	26	6.975	3.03146E-001	3.03352E-001	0.00000E+000	...........
	27	7.23333	3.03211E-001	3.03411E-001	0.00000E+000	...........
	28	7.49167	3.03276E-001	3.03469E-001	0.00000E+000	...........
	29	7.75	3.03341E-001	3.03545E-001	0.00000E+000	...........
	30	8.00833	3.03406E-001	3.03609E-001	0.00000E+000	...........
	31	8.26667	3.03471E-001	3.03677E-001	0.00000E+000	...........
	32	8.525	3.03537E-001	3.03739E-001	0.00000E+000	...........
	33	8.78333	3.03603E-001	3.03798E-001	0.00000E+000	...........
	34	9.04167	3.03669E-001	3.03859E-001	0.00000E+000	...........
	35	9.3	3.03732E-001	3.03928E-001	0.00000E+000	...........
	36	9.5583	3.03795E-001	3.03980E-001	0.00000E+000	...........
	37	9.8167	3.03856E-001	3.04045E-001	0.00000E+000	...........
	38	10.075	3.03918E-001	3.04119E-001	0.00000E+000	...........
	39	10.3333	3.03980E-001	3.04172E-001	0.00000E+000	...........
	40	10.5917	3.04043E-001	3.04231E-001	0.00000E+000	...........
	41	10.85	3.04106E-001	3.04293E-001	0.00000E+000	...........
	42	11.1083	3.04168E-001	3.04353E-001	0.00000E+000	...........
	43	11.3667	3.04228E-001	3.04408E-001	0.00000E+000	...........
	44	11.625	3.04288E-001	3.04474E-001	0.00000E+000	...........
	45	11.8833	3.04347E-001	3.04527E-001	0.00000E+000	...........
	46	12.1417	3.04406E-001	3.04576E-001	0.00000E+000	...........
	47	12.4	3.04464E-001	3.04629E-001	0.00000E+000	...........
	48	12.6583	3.04520E-001	3.04696E-001	0.00000E+000	...........
	49	12.9167	3.04575E-001	3.04744E-001	0.00000E+000	...........
	50	13.175	3.04630E-001	3.04807E-001	0.00000E+000	...........
	51	13.4333	3.04686E-001	3.04855E-001	0.00000E+000	...........
	52	13.6917	3.04742E-001	3.04901E-001	0.00000E+000	...........
	53	13.95	3.04797E-001	3.04963E-001	0.00000E+000	...........
	54	14.2083	3.04850E-001	3.05017E-001	0.00000E+000	...........
	55	14.4667	3.04903E-001	3.05065E-001	0.00000E+000	...........
	56	14.725	3.04956E-001	3.05113E-001	0.00000E+000	...........
	57	14.9833	3.05009E-001	3.05171E-001	0.00000E+000	...........
	58	15.2417	3.05061E-001	3.05234E-001	0.00000E+000	...........
	59	15.5	3.05114E-001	3.05289E-001	0.00000E+000	...........
	60	15.7583	3.05170E-001	3.05346E-001	0.00000E+000	...........
	61	16.0167	3.05227E-001	3.05412E-001	0.00000E+000	...........
	62	16.275	3.05285E-001	3.05475E-001	0.00000E+000	...........
	63	16.5333	3.05345E-001	3.05533E-001	0.00000E+000	...........
	64	16.7917	3.05407E-001	3.05601E-001	0.00000E+000	...........
	65	17.05	3.05469E-001	3.05669E-001	0.00000E+000	...........
	66	17.3083	3.05532E-001	3.05731E-001	0.00000E+000	...........
	67	17.5667	3.05596E-001	3.05797E-001	0.00000E+000	...........
	68	17.825	3.05662E-001	3.05867E-001	0.00000E+000	...........
	69	18.0833	3.05727E-001	3.05930E-001	0.00000E+000	...........
	70	18.3417	3.05793E-001	3.05973E-001	0.00000E+000	...........
	71	18.6	3.05857E-001	3.06029E-001	0.00000E+000	...........
	72	18.8583	3.05916E-001	3.06071E-001	0.00000E+000	...........
	73	19.1167	3.05971E-001	3.06129E-001	0.00000E+000	...........
	74	19.375	3.06022E-001	3.06181E-001	0.00000E+000	...........
	75	19.6333	3.06073E-001	3.06253E-001	0.00000E+000	...........
	76	19.8917	3.06127E-001	3.06300E-001	0.00000E+000	...........
EOC	QUANT	0.3061265	Open Circuit (V)
PSTATMODEL	IQUANT	48	Pstat Model
PSTATSECTION	LABEL	IFC1000-06010	Pstat Section
PSTATSERIALNO	LABEL	06010	Pstat Serial Number
CTRLMODE	IQUANT	1	Control Mode
IESTAB	IQUANT	2	I/E Stability
CASPEED	IQUANT	2	Control Amp Speed
CONVENTION	IQUANT	1	Current Convention
ICHRANGE	IQUANT	2	Ich Range
ICHRANGEMODE	TOGGLE	F	Ich Auto Range
ICHOFFSETENABLE	TOGGLE	F	Ich Offset Enable
ICHOFFSET	QUANT	0	Ich Offset (V)
ICHFILTER	IQUANT	3	Ich Filter
VCHRANGE	IQUANT	2	Vch Range
VCHRANGEMODE	TOGGLE	F	Vch Auto Range
VCHOFFSETENABLE	TOGGLE	F	Vch Offset Enable
VCHOFFSET	QUANT	0	Vch Offset (V)
VCHFILTER	IQUANT	3	Vch Filter
IERANGELOWERLIMIT	IQUANT	4	I/E Range Lower Limit
IERANGEMODE	TOGGLE	T	I/E AutoRange
IERANGE	IQUANT	11	I/E Range
ACHSELECT	IQUANT	4	Ach Select
CABLEID	IQUANT	14	Cable ID
DCCALDATE	LABEL	9/18/2014	DC Calibration Date
ACCALDATE	LABEL	9/18/2014	AC Calibration Date
FRAMEWORKVERSION	QUANT	6.25	Framework Version
INSTRUMENTVERSION	LABEL	3.26	Instrument Version
CURVE1	TABLE
	Pt	T	Vf	Im	Vu	Sig	Ach	IERange	Over
	#	s	V vs. Ref.	A	V	V	V	#	bits
	0	0.04	1.00009E+000	7.84603E-005	0.00000E+000	9.99985E-001	0.00000E+000	11	...........
	17	0.72	9.66101E-001	3.64270E-005	0.00000E+000	9.66017E-001	0.00000E+000	8	...........
	34	1.4	9.32073E-001	1.93480E-005	0.00000E+000	9.32000E-001	0.00000E+000	8	...........
	51	2.08	8.98094E-001	1.05027E-005	0.00000E+000	8.97982E-001	0.00000E+000	8	...........
[...]
	18577	743.12	-1.54055E-001	-2.62341E-003	0.00000E+000	-1.54006E-001	0.00000E+000	10	...........
	18586	743.48	-1.72043E-001	-2.86197E-003	0.00000E+000	-1.72016E-001	0.00000E+000	10	...........
	18595	743.84	-1.90011E-001	-2.94132E-003	0.00000E+000	-1.89975E-001	0.00000E+000	10	...........
	18604	744.2	-2.08025E-001	-2.87390E-003	0.00000E+000	-2.07984E-001	0.00000E+000	10	...........
	18613	744.56	-2.26022E-001	-2.71113E-003	0.00000E+000	-2.25993E-001	0.00000E+000	10	...........
	18622	744.92	-2.44054E-001	-2.51512E-003	0.00000E+000	-2.44002E-001	0.00000E+000	10	...........
	18631	745.28	-2.62065E-001	-2.33085E-003	0.00000E+000	-2.62012E-001	0.00000E+000	10	...........
	18640	745.64	-2.80048E-001	-2.17394E-003	0.00000E+000	-2.80021E-001	0.00000E+000	10	...........
	18649	746	-2.98033E-001	-2.04475E-003	0.00000E+000	-2.97980E-001	0.00000E+000	10	...........
	18658	746.36	-3.16020E-001	-1.94144E-003	0.00000E+000	-3.15989E-001	0.00000E+000	10	...........
	18667	746.72	-3.34060E-001	-1.85599E-003	0.00000E+000	-3.33999E-001	0.00000E+000	10	...........
	18676	747.08	-3.52050E-001	-1.78469E-003	0.00000E+000	-3.52008E-001	0.00000E+000	10	...........
	18685	747.44	-3.70067E-001	-1.72336E-003	0.00000E+000	-3.70017E-001	0.00000E+000	10	...........
	18694	747.8	-3.88028E-001	-1.66685E-003	0.00000E+000	-3.87976E-001	0.00000E+000	10	...........
	18703	748.16	-4.06029E-001	-1.61820E-003	0.00000E+000	-4.05985E-001	0.00000E+000	10	...........
	18712	748.52	-4.24058E-001	-1.57502E-003	0.00000E+000	-4.23995E-001	0.00000E+000	10	...........
	18721	748.88	-4.42062E-001	-1.53902E-003	0.00000E+000	-4.42004E-001	0.00000E+000	10	...........
	18730	749.24	-4.60064E-001	-1.50834E-003	0.00000E+000	-4.60013E-001	0.00000E+000	10	...........
	18739	749.6	-4.78036E-001	-1.48155E-003	0.00000E+000	-4.77972E-001	0.00000E+000	10	...........
	18748	749.96	-4.96059E-001	-1.46117E-003	0.00000E+000	-4.95981E-001	0.00000E+000	10	...........
	18757	750.32	-5.14081E-001	-1.44410E-003	0.00000E+000	-5.13991E-001	0.00000E+000	10	...........
	18766	750.68	-5.32054E-001	-1.43193E-003	0.00000E+000	-5.32000E-001	0.00000E+000	10	...........
	18775	751.04	-5.50056E-001	-1.42587E-003	0.00000E+000	-5.50009E-001	0.00000E+000	10	...........
	18784	751.4	-5.68078E-001	-1.42485E-003	0.00000E+000	-5.68018E-001	0.00000E+000	10	...........
	18793	751.76	-5.86021E-001	-1.43433E-003	0.00000E+000	-5.85978E-001	0.00000E+000	10	...........
	18802	752.12	-6.04063E-001	-1.44982E-003	0.00000E+000	-6.03987E-001	0.00000E+000	10	...........
	18811	752.48	-6.22064E-001	-1.46574E-003	0.00000E+000	-6.21996E-001	0.00000E+000	10	...........
	18820	752.84	-6.40064E-001	-1.47505E-003	0.00000E+000	-6.40005E-001	0.00000E+000	10	...........
	18829	753.2	-6.58076E-001	-1.47495E-003	0.00000E+000	-6.58014E-001	0.00000E+000	10	...........
	18838	753.56	-6.76055E-001	-1.46850E-003	0.00000E+000	-6.75974E-001	0.00000E+000	10	...........
	18847	753.92	-6.94076E-001	-1.45008E-003	0.00000E+000	-6.93983E-001	0.00000E+000	10	...........
	18856	754.28	-7.12067E-001	-1.42145E-003	0.00000E+000	-7.11992E-001	0.00000E+000	10	...........
	18865	754.64	-7.30068E-001	-1.37908E-003	0.00000E+000	-7.30001E-001	0.00000E+000	10	...........
	18874	755	-7.48090E-001	-1.33215E-003	0.00000E+000	-7.48011E-001	0.00000E+000	10	...........
	18883	755.36	-7.66087E-001	-1.29359E-003	0.00000E+000	-7.66020E-001	0.00000E+000	10	...........
	18892	755.72	-7.84071E-001	-1.27725E-003	0.00000E+000	-7.83979E-001	0.00000E+000	10	...........
	18900	756.04	-8.00069E-001	-1.30740E-003	0.00000E+000	-7.99987E-001	0.00000E+000	10	...........