Folder: R-learning-stuff/CV data

Note: README.md
# R-learning-stuff
learning with R

File: 012615_KM_baseline2_160mmhg.txt
EXPLAIN
TAG	CV
TITLE	LABEL	Cyclic Voltammetry	Test &Identifier
DATE	LABEL	1/26/2015	Date
TIME	LABEL	15:48:15	Time
NOTES	NOTES	1	&Notes...

PSTAT	PSTAT	IFC1000-06010	Potentiostat
VINIT	POTEN	1.00000E+000	F	Initial &E (V)
VLIMIT1	POTEN	-8.00000E-001	F	Scan Limit &1 (V)
VLIMIT2	POTEN	1.00000E+000	F	Scan Limit &2 (V)
VFINAL	POTEN	-8.00000E-001	F	Final &E (V)
SCANRATE	QUANT	4.99999E+001	&Scan Rate (mV/s)
STEPSIZE	QUANT	2.00000E+000	St&ep Size (mV)
CYCLES	IQUANT	6	C&ycles (#)
IMODE	SELECTOR	0	I/E Range &Mode
IRANGE	QUANT	1.00000E+001	&Max Current (mA)
AREA	QUANT	1.00000E+000	Electrode &Area (cm^2)
ELECTRODETYPE	SELECTOR	0	Electrode Type
STRIPPING	TOGGLE	F	Used for Stripping
POLARITY	TOGGLE	F	Signal Polarity
CONDIT	TWOPARAM	F	1.50000E+001	0.00000E+000	Conditionin&g	Time(s)	E(V)
DELAY	TWOPARAM	T	2.00000E+001	0.00000E+000	Init. De&lay	Time(s)	Stab.(mV/s)
EQDELAY	QUANT	5.00000E+000	Equil. &Time (s)
IRCOMP	SELECTOR	1	IRCom&p
PFCOR	QUANT	5.00000E+001	PF Corr. (ohm)
SAMPLINGMODE	SELECTOR	1	Sampling &Mode
OCVCURVE	TABLE	77
	Pt	T	Vf	Vm	Ach	Over
	#	s	V vs. Ref.	V	V	bits
	0	0.258333	2.94492E-001	2.94492E-001	0.00000E+000	...........
	1	0.516667	2.94493E-001	2.94513E-001	0.00000E+000	...........
	2	0.775	2.94495E-001	2.94536E-001	0.00000E+000	...........
	3	1.03333	2.94503E-001	2.94558E-001	0.00000E+000	...........
	4	1.29167	2.94516E-001	2.94586E-001	0.00000E+000	...........
	5	1.55	2.94535E-001	2.94608E-001	0.00000E+000	...........
	6	1.80833	2.94558E-001	2.94638E-001	0.00000E+000	...........
	7	2.06667	2.94582E-001	2.94649E-001	0.00000E+000	...........
	8	2.325	2.94607E-001	2.94681E-001	0.00000E+000	...........
	9	2.58333	2.94630E-001	2.94704E-001	0.00000E+000	...........
	10	2.84167	2.94654E-001	2.94738E-001	0.00000E+000	...........
	11	3.1	2.94679E-001	2.94752E-001	0.00000E+000	...........
	12	3.35833	2.94704E-001	2.94780E-001	0.00000E+000	...........
	13	3.61667	2.94730E-001	2.94818E-001	0.00000E+000	...........
	14	3.875	2.94755E-001	2.94842E-001	0.00000E+000	...........
	15	4.13333	2.94783E-001	2.94872E-001	0.00000E+000	...........
	16	4.39167	2.94811E-001	2.94906E-001	0.00000E+000	...........
	17	4.65	2.94841E-001	2.94929E-001	0.00000E+000	...........
	18	4.90833	2.94871E-001	2.94958E-001	0.00000E+000	...........
	19	5.16667	2.94900E-001	2.94976E-001	0.00000E+000	...........
	20	5.425	2.94927E-001	2.95008E-001	0.00000E+000	...........
	21	5.68333	2.94953E-001	2.95029E-001	0.00000E+000	...........
	22	5.94167	2.94978E-001	2.95053E-001	0.00000E+000	...........
	23	6.2	2.95003E-001	2.95078E-001	0.00000E+000	...........
	24	6.45833	2.95028E-001	2.95101E-001	0.00000E+000	...........
	25	6.71667	2.95052E-001	2.95124E-001	0.00000E+000	...........
	26	6.975	2.95075E-001	2.95147E-001	0.00000E+000	...........
	27	7.23333	2.95099E-001	2.95176E-001	0.00000E+000	...........
	28	7.49167	2.95123E-001	2.95197E-001	0.00000E+000	...........
	29	7.75	2.95147E-001	2.95231E-001	0.00000E+000	...........
	30	8.00833	2.95172E-001	2.95249E-001	0.00000E+000	...........
	31	8.26667	2.95198E-001	2.95274E-001	0.00000E+000	...........
	32	8.525	2.95223E-001	2.95300E-001	0.00000E+000	...........
	33	8.78333	2.95248E-001	2.95318E-001	0.00000E+000	...........
	34	9.04167	2.95272E-001	2.95348E-001	0.00000E+000	...........
	35	9.3	2.95296E-001	2.95361E-001	0.00000E+000	...........
	36	9.5583	2.95319E-001	2.95392E-001	0.00000E+000	...........
	37	9.8167	2.95342E-001	2.95427E-001	0.00000E+000	...........
	38	10.075	2.95366E-001	2.95450E-001	0.00000E+000	...........
	39	10.3333	2.95393E-001	2.95483E-001	0.00000E+000	...........
	40	10.5917	2.95421E-001	2.95500E-001	0.00000E+000	...........
	41	10.85	2.95449E-001	2.95535E-001	0.00000E+000	...........
	42	11.1083	2.95476E-001	2.95559E-001	0.00000E+000	...........
	43	11.3667	2.95503E-001	2.95577E-001	0.00000E+000	...........
	44	11.625	2.95529E-001	2.95596E-001	0.00000E+000	...........
	45	11.8833	2.95553E-001	2.95620E-001	0.00000E+000	...........
	46	12.1417	2.95575E-001	2.95631E-001	0.00000E+000	...........
	47	12.4	2.95595E-001	2.95653E-001	0.00000E+000	...........
	48	12.6583	2.95615E-001	2.95677E-001	0.00000E+000	...........
	49	12.9167	2.95634E-001	2.95702E-001	0.00000E+000	...........
	50	13.175	2.95654E-001	2.95722E-001	0.00000E+000	...........
	51	13.4333	2.95676E-001	2.95748E-001	0.00000E+000	...........
	52	13.6917	2.95699E-001	2.95769E-001	0.00000E+000	...........
	53	13.95	2.95722E-001	2.95794E-001	0.00000E+000	...........
	54	14.2083	2.95745E-001	2.95824E-001	0.00000E+000	...........
	55	14.4667	2.95769E-001	2.95842E-001	0.00000E+000	...........
	56	14.725	2.95794E-001	2.95870E-001	0.00000E+000	...........
	57	14.9833	2.95819E-001	2.95898E-001	0.00000E+000	...........
	58	15.2417	2.95843E-001	2.95920E-001	0.00000E+000	...........
	59	15.5	2.95869E-001	2.95945E-001	0.00000E+000	...........
	60	15.7583	2.95894E-001	2.95971E-001	0.00000E+000	...........
	61	16.0167	2.95919E-001	2.95994E-001	0.00000E+000	...........
	62	16.275	2.95944E-001	2.96020E-001	0.00000E+000	...........
	63	16.5333	2.95968E-001	2.96041E-001	0.00000E+000	...........
	64	16.7917	2.95993E-001	2.96063E-001	0.00000E+000	...........
	65	17.05	2.96016E-001	2.96089E-001	0.00000E+000	...........
	66	17.3083	2.96040E-001	2.96115E-001	0.00000E+000	...........
	67	17.5667	2.96063E-001	2.96135E-001	0.00000E+000	...........
	68	17.825	2.96087E-001	2.96157E-001	0.00000E+000	...........
	69	18.0833	2.96111E-001	2.96186E-001	0.00000E+000	...........
	70	18.3417	2.96134E-001	2.96214E-001	0.00000E+000	...........
	71	18.6	2.96159E-001	2.96234E-001	0.00000E+000	...........
	72	18.8583	2.96183E-001	2.96248E-001	0.00000E+000	...........
	73	19.1167	2.96207E-001	2.96272E-001	0.00000E+000	...........
	74	19.375	2.96229E-001	2.96307E-001	0.00000E+000	...........
	75	19.6333	2.96251E-001	2.96323E-001	0.00000E+000	...........
	76	19.8917	2.96275E-001	2.96349E-001	0.00000E+000	...........
EOC	QUANT	0.2962747	Open Circuit (V)
PSTATMODEL	IQUANT	48	Pstat Model
PSTATSECTION	LABEL	IFC1000-06010	Pstat Section
PSTATSERIALNO	LABEL	06010	Pstat Serial Number
CTRLMODE	IQUANT	1	Control Mode
IESTAB	IQUANT	2	I/E Stability
CASPEED	IQUANT	2	Control Amp Speed
CONVENTION	IQUANT	1	Current Convention
ICHRANGE	IQUANT	2	Ich Range
ICHRANGEMODE	TOGGLE	F	Ich Auto Range
ICHOFFSETENABLE	TOGGLE	F	Ich Offset Enable
ICHOFFSET	QUANT	0	Ich Offset (V)
ICHFILTER	IQUANT	3	Ich Filter
VCHRANGE	IQUANT	2	Vch Range
VCHRANGEMODE	TOGGLE	F	Vch Auto Range
VCHOFFSETENABLE	TOGGLE	F	Vch Offset Enable
VCHOFFSET	QUANT	0	Vch Offset (V)
VCHFILTER	IQUANT	3	Vch Filter
IERANGELOWERLIMIT	IQUANT	4	I/E Range Lower Limit
IERANGEMODE	TOGGLE	T	I/E AutoRange
IERANGE	IQUANT	11	I/E Range
ACHSELECT	IQUANT	4	Ach Select
CABLEID	IQUANT	14	Cable ID
DCCALDATE	LABEL	9/18/2014	DC Calibration Date
ACCALDATE	LABEL	9/18/2014	AC Calibration Date
FRAMEWORKVERSION	QUANT	6.25	Framework Version
INSTRUMENTVERSION	LABEL	3.26	Instrument Version
CURVE1	TABLE
	Pt	T	Vf	Im	Vu	Sig	Ach	IERange	Over
	#	s	V vs. Ref.	A	V	V	V	#	bits
	0	0.04	1.00012E+000	1.01041E-004	0.00000E+000	9.99985E-001	0.00000E+000	11	...........
	17	0.72	9.66114E-001	4.75150E-005	0.00000E+000	9.66017E-001	0.00000E+000	8	...........
	34	1.4	9.32087E-001	2.42641E-005	0.00000E+000	9.32000E-001	0.00000E+000	8	...........
	51	2.08	8.98099E-001	1.19269E-005	0.00000E+000	8.97982E-001	0.00000E+000	8	...........
[...]
	11368	454.76	-1.36023E-001	-9.40309E-004	0.00000E+000	-1.35997E-001	0.00000E+000	10	...........
	11377	455.12	-1.54062E-001	-9.08276E-004	0.00000E+000	-1.54006E-001	0.00000E+000	10	...........
	11386	455.48	-1.72050E-001	-8.69822E-004	0.00000E+000	-1.72016E-001	0.00000E+000	10	...........
	11395	455.84	-1.90020E-001	-8.27051E-004	0.00000E+000	-1.89975E-001	0.00000E+000	10	...........
	11404	456.2	-2.08012E-001	-7.85127E-004	0.00000E+000	-2.07984E-001	0.00000E+000	9	...........
	11413	456.56	-2.26022E-001	-7.40497E-004	0.00000E+000	-2.25993E-001	0.00000E+000	9	...........
	11422	456.92	-2.44036E-001	-7.00134E-004	0.00000E+000	-2.44002E-001	0.00000E+000	9	...........
	11431	457.28	-2.62066E-001	-6.63095E-004	0.00000E+000	-2.62012E-001	0.00000E+000	9	...........
	11440	457.64	-2.80060E-001	-6.30148E-004	0.00000E+000	-2.80021E-001	0.00000E+000	9	...........
	11449	458	-2.98043E-001	-6.01338E-004	0.00000E+000	-2.97980E-001	0.00000E+000	9	...........
	11458	458.36	-3.16028E-001	-5.75416E-004	0.00000E+000	-3.15989E-001	0.00000E+000	9	...........
	11467	458.72	-3.34060E-001	-5.55571E-004	0.00000E+000	-3.33999E-001	0.00000E+000	9	...........
	11476	459.08	-3.52049E-001	-5.39397E-004	0.00000E+000	-3.52008E-001	0.00000E+000	9	...........
	11485	459.44	-3.70060E-001	-5.26600E-004	0.00000E+000	-3.70017E-001	0.00000E+000	9	...........
	11494	459.8	-3.88025E-001	-5.17992E-004	0.00000E+000	-3.87976E-001	0.00000E+000	9	...........
	11503	460.16	-4.06027E-001	-5.09301E-004	0.00000E+000	-4.05985E-001	0.00000E+000	9	...........
	11512	460.52	-4.24052E-001	-5.04389E-004	0.00000E+000	-4.23995E-001	0.00000E+000	9	...........
	11521	460.88	-4.42051E-001	-5.01291E-004	0.00000E+000	-4.42004E-001	0.00000E+000	9	...........
	11530	461.24	-4.60053E-001	-5.02142E-004	0.00000E+000	-4.60013E-001	0.00000E+000	9	...........
	11539	461.6	-4.78040E-001	-5.05732E-004	0.00000E+000	-4.77972E-001	0.00000E+000	9	...........
	11548	461.96	-4.96047E-001	-5.12383E-004	0.00000E+000	-4.95981E-001	0.00000E+000	9	...........
	11557	462.32	-5.14082E-001	-5.26144E-004	0.00000E+000	-5.13991E-001	0.00000E+000	9	...........
	11566	462.68	-5.32053E-001	-5.44187E-004	0.00000E+000	-5.32000E-001	0.00000E+000	9	...........
	11575	463.04	-5.50055E-001	-5.67907E-004	0.00000E+000	-5.50009E-001	0.00000E+000	9	...........
	11584	463.4	-5.68074E-001	-5.89407E-004	0.00000E+000	-5.68018E-001	0.00000E+000	9	...........
	11593	463.76	-5.86026E-001	-6.03951E-004	0.00000E+000	-5.85978E-001	0.00000E+000	9	...........
	11602	464.12	-6.04062E-001	-6.13598E-004	0.00000E+000	-6.03987E-001	0.00000E+000	9	...........
	11611	464.48	-6.22045E-001	-6.11247E-004	0.00000E+000	-6.21996E-001	0.00000E+000	9	...........
	11620	464.84	-6.40054E-001	-5.96355E-004	0.00000E+000	-6.40005E-001	0.00000E+000	9	...........
	11629	465.2	-6.58086E-001	-5.66838E-004	0.00000E+000	-6.58014E-001	0.00000E+000	9	...........
	11638	465.56	-6.76039E-001	-5.38655E-004	0.00000E+000	-6.75974E-001	0.00000E+000	9	...........
	11647	465.92	-6.94069E-001	-5.24067E-004	0.00000E+000	-6.93983E-001	0.00000E+000	9	...........
	11656	466.28	-7.12071E-001	-5.09971E-004	0.00000E+000	-7.11992E-001	0.00000E+000	9	...........
	11665	466.64	-7.30065E-001	-5.08220E-004	0.00000E+000	-7.30001E-001	0.00000E+000	9	...........
	11674	467	-7.48085E-001	-5.49846E-004	0.00000E+000	-7.48011E-001	0.00000E+000	9	...........
	11683	467.36	-7.66082E-001	-6.86167E-004	0.00000E+000	-7.66020E-001	0.00000E+000	9	...........
	11692	467.72	-7.84064E-001	-9.60459E-004	0.00000E+000	-7.83979E-001	0.00000E+000	10	...........
	11700	468.04	-8.00072E-001	-1.33677E-003	0.00000E+000	-7.99987E-001	0.00000E+000	10	...........

File: 012615_KM_baseline_160mmhg.txt
EXPLAIN
TAG	CV
TITLE	LABEL	Cyclic Voltammetry	Test &Identifier
DATE	LABEL	1/26/2015	Date
TIME	LABEL	14:47:29	Time
NOTES	NOTES	1	&Notes...

PSTAT	PSTAT	IFC1000-06010	Potentiostat
VINIT	POTEN	1.00000E+000	F	Initial &E (V)
VLIMIT1	POTEN	-8.00000E-001	F	Scan Limit &1 (V)
VLIMIT2	POTEN	1.00000E+000	F	Scan Limit &2 (V)
VFINAL	POTEN	-8.00000E-001	F	Final &E (V)
SCANRATE	QUANT	4.99999E+001	&Scan Rate (mV/s)
STEPSIZE	QUANT	2.00000E+000	St&ep Size (mV)
CYCLES	IQUANT	10	C&ycles (#)
IMODE	SELECTOR	0	I/E Range &Mode
IRANGE	QUANT	1.00000E+001	&Max Current (mA)
AREA	QUANT	1.00000E+000	Electrode &Area (cm^2)
ELECTRODETYPE	SELECTOR	0	Electrode Type
STRIPPING	TOGGLE	F	Used for Stripping
POLARITY	TOGGLE	F	Signal Polarity
CONDIT	TWOPARAM	F	1.50000E+001	0.00000E+000	Conditionin&g	Time(s)	E(V)
DELAY	TWOPARAM	T	2.00000E+001	0.00000E+000	Init. De&lay	Time(s)	Stab.(mV/s)
EQDELAY	QUANT	5.00000E+000	Equil. &Time (s)
IRCOMP	SELECTOR	1	IRCom&p
PFCOR	QUANT	5.00000E+001	PF Corr. (ohm)
SAMPLINGMODE	SELECTOR	1	Sampling &Mode
OCVCURVE	TABLE	77
	Pt	T	Vf	Vm	Ach	Over
	#	s	V vs. Ref.	V	V	bits
	0	0.258333	2.15269E-001	2.15269E-001	0.00000E+000	...........
	1	0.516667	2.15279E-001	2.15767E-001	0.00000E+000	...........
	2	0.775	2.15337E-001	2.16260E-001	0.00000E+000	...........
	3	1.03333	2.15505E-001	2.16742E-001	0.00000E+000	...........
	4	1.29167	2.15809E-001	2.17215E-001	0.00000E+000	...........
	5	1.55	2.16220E-001	2.17688E-001	0.00000E+000	...........
	6	1.80833	2.16685E-001	2.18155E-001	0.00000E+000	...........
	7	2.06667	2.17165E-001	2.18616E-001	0.00000E+000	...........
	8	2.325	2.17643E-001	2.19072E-001	0.00000E+000	...........
	9	2.58333	2.18113E-001	2.19520E-001	0.00000E+000	...........
	10	2.84167	2.18576E-001	2.19961E-001	0.00000E+000	...........
	11	3.1	2.19032E-001	2.20398E-001	0.00000E+000	...........
	12	3.35833	2.19481E-001	2.20830E-001	0.00000E+000	...........
	13	3.61667	2.19923E-001	2.21262E-001	0.00000E+000	...........
	14	3.875	2.20361E-001	2.21685E-001	0.00000E+000	...........
	15	4.13333	2.20795E-001	2.22099E-001	0.00000E+000	...........
	16	4.39167	2.21223E-001	2.22512E-001	0.00000E+000	...........
	17	4.65	2.21647E-001	2.22924E-001	0.00000E+000	...........
	18	4.90833	2.22065E-001	2.23327E-001	0.00000E+000	...........
	19	5.16667	2.22478E-001	2.23728E-001	0.00000E+000	...........
	20	5.425	2.22888E-001	2.24124E-001	0.00000E+000	...........
	21	5.68333	2.23293E-001	2.24511E-001	0.00000E+000	...........
	22	5.94167	2.23693E-001	2.24896E-001	0.00000E+000	...........
	23	6.2	2.24088E-001	2.25277E-001	0.00000E+000	...........
	24	6.45833	2.24478E-001	2.25661E-001	0.00000E+000	...........
	25	6.71667	2.24864E-001	2.26034E-001	0.00000E+000	...........
	26	6.975	2.25247E-001	2.26402E-001	0.00000E+000	...........
	27	7.23333	2.25626E-001	2.26769E-001	0.00000E+000	...........
	28	7.49167	2.26001E-001	2.27130E-001	0.00000E+000	...........
	29	7.75	2.26371E-001	2.27489E-001	0.00000E+000	...........
	30	8.00833	2.26737E-001	2.27846E-001	0.00000E+000	...........
	31	8.26667	2.27100E-001	2.28200E-001	0.00000E+000	...........
	32	8.525	2.27459E-001	2.28549E-001	0.00000E+000	...........
	33	8.78333	2.27816E-001	2.28894E-001	0.00000E+000	...........
	34	9.04167	2.28169E-001	2.29233E-001	0.00000E+000	...........
	35	9.3	2.28518E-001	2.29572E-001	0.00000E+000	...........
	36	9.5583	2.28864E-001	2.29904E-001	0.00000E+000	...........
	37	9.8167	2.29205E-001	2.30235E-001	0.00000E+000	...........
	38	10.075	2.29543E-001	2.30566E-001	0.00000E+000	...........
	39	10.3333	2.29877E-001	2.30892E-001	0.00000E+000	...........
	40	10.5917	2.30209E-001	2.31215E-001	0.00000E+000	...........
	41	10.85	2.30538E-001	2.31534E-001	0.00000E+000	...........
	42	11.1083	2.30864E-001	2.31855E-001	0.00000E+000	...........
	43	11.3667	2.31188E-001	2.32165E-001	0.00000E+000	...........
	44	11.625	2.31508E-001	2.32473E-001	0.00000E+000	...........
	45	11.8833	2.31825E-001	2.32782E-001	0.00000E+000	...........
	46	12.1417	2.32138E-001	2.33087E-001	0.00000E+000	...........
	47	12.4	2.32448E-001	2.33389E-001	0.00000E+000	...........
	48	12.6583	2.32756E-001	2.33690E-001	0.00000E+000	...........
	49	12.9167	2.33061E-001	2.33990E-001	0.00000E+000	...........
	50	13.175	2.33364E-001	2.34282E-001	0.00000E+000	...........
	51	13.4333	2.33665E-001	2.34575E-001	0.00000E+000	...........
	52	13.6917	2.33963E-001	2.34863E-001	0.00000E+000	...........
	53	13.95	2.34258E-001	2.35149E-001	0.00000E+000	...........
	54	14.2083	2.34550E-001	2.35430E-001	0.00000E+000	...........
	55	14.4667	2.34838E-001	2.35715E-001	0.00000E+000	...........
	56	14.725	2.35125E-001	2.35997E-001	0.00000E+000	...........
	57	14.9833	2.35409E-001	2.36272E-001	0.00000E+000	...........
	58	15.2417	2.35691E-001	2.36550E-001	0.00000E+000	...........
	59	15.5	2.35972E-001	2.36820E-001	0.00000E+000	...........
	60	15.7583	2.36250E-001	2.37096E-001	0.00000E+000	...........
	61	16.0167	2.36526E-001	2.37364E-001	0.00000E+000	...........
	62	16.275	2.36799E-001	2.37632E-001	0.00000E+000	...........
	63	16.5333	2.37072E-001	2.37900E-001	0.00000E+000	...........
	64	16.7917	2.37342E-001	2.38158E-001	0.00000E+000	...........
	65	17.05	2.37610E-001	2.38422E-001	0.00000E+000	...........
	66	17.3083	2.37875E-001	2.38675E-001	0.00000E+000	...........
	67	17.5667	2.38138E-001	2.38930E-001	0.00000E+000	...........
	68	17.825	2.38398E-001	2.39188E-001	0.00000E+000	...........
	69	18.0833	2.38655E-001	2.39437E-001	0.00000E+000	...........
	70	18.3417	2.38911E-001	2.39686E-001	0.00000E+000	...........
	71	18.6	2.39164E-001	2.39933E-001	0.00000E+000	...........
	72	18.8583	2.39416E-001	2.40181E-001	0.00000E+000	...........
	73	19.1167	2.39665E-001	2.40427E-001	0.00000E+000	...........
	74	19.375	2.39914E-001	2.40670E-001	0.00000E+000	...........
	75	19.6333	2.40161E-001	2.40918E-001	0.00000E+000	...........
	76	19.8917	2.40407E-001	2.41156E-001	0.00000E+000	...........
EOC	QUANT	0.2404069	Open Circuit (V)
PSTATMODEL	IQUANT	48	Pstat Model
PSTATSECTION	LABEL	IFC1000-06010	Pstat Section
PSTATSERIALNO	LABEL	06010	Pstat Serial Number
CTRLMODE	IQUANT	1	Control Mode
IESTAB	IQUANT	2	I/E Stability
CASPEED	IQUANT	2	Control Amp Speed
CONVENTION	IQUANT	1	Current Convention
ICHRANGE	IQUANT	2	Ich Range
ICHRANGEMODE	TOGGLE	F	Ich Auto Range
ICHOFFSETENABLE	TOGGLE	F	Ich Offset Enable
ICHOFFSET	QUANT	0	Ich Offset (V)
ICHFILTER	IQUANT	3	Ich Filter
VCHRANGE	IQUANT	2	Vch Range
VCHRANGEMODE	TOGGLE	F	Vch Auto Range
VCHOFFSETENABLE	TOGGLE	F	Vch Offset Enable
VCHOFFSET	QUANT	0	Vch Offset (V)
VCHFILTER	IQUANT	3	Vch Filter
IERANGELOWERLIMIT	IQUANT	4	I/E Range Lower Limit
IERANGEMODE	TOGGLE	T	I/E AutoRange
IERANGE	IQUANT	11	I/E Range
ACHSELECT	IQUANT	4	Ach Select
CABLEID	IQUANT	14	Cable ID
DCCALDATE	LABEL	9/18/2014	DC Calibration Date
ACCALDATE	LABEL	9/18/2014	AC Calibration Date
FRAMEWORKVERSION	QUANT	6.25	Framework Version
INSTRUMENTVERSION	LABEL	3.26	Instrument Version
CURVE1	TABLE
	Pt	T	Vf	Im	Vu	Sig	Ach	IERange	Over
	#	s	V vs. Ref.	A	V	V	V	#	bits
	0	0.04	1.00018E+000	1.35778E-004	0.00000E+000	9.99985E-001	0.00000E+000	11	...........
	17	0.72	9.66176E-001	7.46014E-005	0.00000E+000	9.66017E-001	0.00000E+000	8	...........
	34	1.4	9.32151E-001	4.31936E-005	0.00000E+000	9.32000E-001	0.00000E+000	8	...........
	51	2.08	8.98183E-001	2.50303E-005	0.00000E+000	8.97982E-001	0.00000E+000	8	...........
[...]
	18568	742.76	-1.35990E-001	-9.30258E-004	0.00000E+000	-1.35997E-001	0.00000E+000	10	...........
	18577	743.12	-1.54032E-001	-9.14719E-004	0.00000E+000	-1.54006E-001	0.00000E+000	10	...........
	18586	743.48	-1.72015E-001	-8.89831E-004	0.00000E+000	-1.72016E-001	0.00000E+000	10	...........
	18595	743.84	-1.89975E-001	-8.58334E-004	0.00000E+000	-1.89975E-001	0.00000E+000	10	...........
	18604	744.2	-2.07988E-001	-8.22366E-004	0.00000E+000	-2.07984E-001	0.00000E+000	10	...........
	18613	744.56	-2.25976E-001	-7.87636E-004	0.00000E+000	-2.25993E-001	0.00000E+000	9	...........
	18622	744.92	-2.44008E-001	-7.52378E-004	0.00000E+000	-2.44002E-001	0.00000E+000	9	...........
	18631	745.28	-2.62020E-001	-7.18715E-004	0.00000E+000	-2.62012E-001	0.00000E+000	9	...........
	18640	745.64	-2.80011E-001	-6.87838E-004	0.00000E+000	-2.80021E-001	0.00000E+000	9	...........
	18649	746	-2.97998E-001	-6.57494E-004	0.00000E+000	-2.97980E-001	0.00000E+000	9	...........
	18658	746.36	-3.15991E-001	-6.29209E-004	0.00000E+000	-3.15989E-001	0.00000E+000	9	...........
	18667	746.72	-3.34016E-001	-6.04751E-004	0.00000E+000	-3.33999E-001	0.00000E+000	9	...........
	18676	747.08	-3.51999E-001	-5.82540E-004	0.00000E+000	-3.52008E-001	0.00000E+000	9	...........
	18685	747.44	-3.70011E-001	-5.65803E-004	0.00000E+000	-3.70017E-001	0.00000E+000	9	...........
	18694	747.8	-3.87990E-001	-5.51397E-004	0.00000E+000	-3.87976E-001	0.00000E+000	9	...........
	18703	748.16	-4.05985E-001	-5.40339E-004	0.00000E+000	-4.05985E-001	0.00000E+000	9	...........
	18712	748.52	-4.24014E-001	-5.32883E-004	0.00000E+000	-4.23995E-001	0.00000E+000	9	...........
	18721	748.88	-4.42007E-001	-5.28019E-004	0.00000E+000	-4.42004E-001	0.00000E+000	9	...........
	18730	749.24	-4.60018E-001	-5.28315E-004	0.00000E+000	-4.60013E-001	0.00000E+000	9	...........
	18739	749.6	-4.77994E-001	-5.32752E-004	0.00000E+000	-4.77972E-001	0.00000E+000	9	...........
	18748	749.96	-4.96008E-001	-5.38582E-004	0.00000E+000	-4.95981E-001	0.00000E+000	9	...........
	18757	750.32	-5.14036E-001	-5.48468E-004	0.00000E+000	-5.13991E-001	0.00000E+000	9	...........
	18766	750.68	-5.32017E-001	-5.64064E-004	0.00000E+000	-5.32000E-001	0.00000E+000	9	...........
	18775	751.04	-5.50007E-001	-5.83919E-004	0.00000E+000	-5.50009E-001	0.00000E+000	9	...........
	18784	751.4	-5.68034E-001	-5.99030E-004	0.00000E+000	-5.68018E-001	0.00000E+000	9	...........
	18793	751.76	-5.85987E-001	-6.12750E-004	0.00000E+000	-5.85978E-001	0.00000E+000	9	...........
	18802	752.12	-6.04015E-001	-6.19664E-004	0.00000E+000	-6.03987E-001	0.00000E+000	9	...........
	18811	752.48	-6.22016E-001	-6.18328E-004	0.00000E+000	-6.21996E-001	0.00000E+000	9	...........
	18820	752.84	-6.40012E-001	-6.10204E-004	0.00000E+000	-6.40005E-001	0.00000E+000	9	...........
	18829	753.2	-6.58044E-001	-5.84674E-004	0.00000E+000	-6.58014E-001	0.00000E+000	9	...........
	18838	753.56	-6.75998E-001	-5.56232E-004	0.00000E+000	-6.75974E-001	0.00000E+000	9	...........
	18847	753.92	-6.94028E-001	-5.38777E-004	0.00000E+000	-6.93983E-001	0.00000E+000	9	...........
	18856	754.28	-7.12018E-001	-5.22421E-004	0.00000E+000	-7.11992E-001	0.00000E+000	9	...........
	18865	754.64	-7.30023E-001	-5.22841E-004	0.00000E+000	-7.30001E-001	0.00000E+000	9	...........
	18874	755	-7.48044E-001	-5.60669E-004	0.00000E+000	-7.48011E-001	0.00000E+000	9	...........
	18883	755.36	-7.66042E-001	-6.91296E-004	0.00000E+000	-7.66020E-001	0.00000E+000	9	...........
	18892	755.72	-7.84023E-001	-9.53783E-004	0.00000E+000	-7.83979E-001	0.00000E+000	10	...........
	18900	756.04	-8.00031E-001	-1.31753E-003	0.00000E+000	-7.99987E-001	0.00000E+000	10	...........